,vol_frac,trial_index,arm_name,mu1,mu2,mu3,std1,std2,std3,comp1,comp2,comp3,trial_status,generation_method,runtime,trial_start_datetime,trial_complete_datetime,time_elapsed,vol_frac_pred,vol_frac_sigma
0,0.655,0,0_0,1.821022868156433,2.433822751045227,3.5236775875091553,0.5943159937858583,0.12564098611474037,0.3638987362384797,0.27152377367019653,0.6113385558128357,0.8736794590950012,COMPLETED,Sobol,5880.125837,2022-06-28 02:44:54.037422,2022-06-28 04:22:54.163259,5880.125837,0.6550635411974269,0.004838210133493112
3,0.61,1,1_0,3.27779333665967,4.798547223210335,2.5856543332338333,0.2594959824346006,0.7692971358075738,0.7654658768326044,0.5995651725679636,0.12434375379234552,0.32803395111113787,COMPLETED,Sobol,3446.920397,2022-06-28 02:44:54.250850,2022-06-28 03:42:21.171247,3447.133825,0.6111489144340153,0.0048388222936424155
15,0.719,2,2_0,4.382188756018877,1.0150535590946674,4.7790606543421745,0.8888013072311878,0.9105418149381876,0.9818157904781402,0.14646757300943136,0.32295697927474976,0.1056170491501689,COMPLETED,Sobol,20567.379458,2022-06-28 02:44:54.395465,2022-06-28 08:27:41.774923,20567.737501,0.7169533232498205,0.0038342043565854854
27,0.59,3,3_0,2.9566176049411297,3.6278091743588448,1.8303570821881294,0.33063196334987877,0.4362708425149322,0.14409499065950515,0.9746309071779251,0.8202075874432921,0.5912287859246135,COMPLETED,Sobol,2501.284962,2022-06-28 02:44:54.545064,2022-06-28 03:26:35.830026,2501.792604,0.5915257036716745,0.0048378807329551455
39,0.64,4,4_0,2.0111092887818813,1.905113060027361,2.4141676165163517,0.4818124742247164,0.5349630316719413,0.482684515696019,0.0661560408771038,0.4462169846519828,0.15057367645204067,COMPLETED,Sobol,7882.323882,2022-06-28 02:44:54.701645,2022-06-28 04:56:17.025527,7882.988105,0.6407175201026669,0.004827131120284719
51,0.678,5,5_0,4.59344420209527,3.2689196839928627,3.476138073951006,0.821999445836991,0.7840456325560808,0.6432056694291532,0.7971204174682498,0.9431013092398643,0.6673661526292562,COMPLETED,Sobol,13948.672889,2022-06-28 02:44:54.861218,2022-06-28 06:37:23.534107,13949.496685,0.6775463332738306,0.004837108184417596
63,0.684,6,6_0,3.6919190920889378,2.544447910040617,1.169828113168478,0.10129795111715795,0.6431614154949784,0.877301880903542,0.4378038104623556,0.7347206706181169,0.8834716305136681,COMPLETED,Sobol,10794.122876,2022-06-28 02:44:55.034754,2022-06-28 05:44:49.157630,10795.120208,0.6834893216214354,0.004837297375411
75,0.702,7,7_0,1.140905823558569,4.156286641955376,4.2211164347827435,0.6681353664025664,0.22420617267489434,0.25205586235970256,0.6754821697250009,0.24711559526622295,0.43152328580617905,COMPLETED,Sobol,13907.860489,2022-06-28 02:44:55.215273,2022-06-28 06:36:43.075762,13909.03834,0.7010983644226015,0.004838730788348077
87,0.673,8,8_0,1.4253391101956367,1.4420216232538223,1.4552332647144794,0.8500955710187554,0.6795885263010859,0.15882175648584962,0.05795626901090145,0.3767441315576434,0.20814381167292595,COMPLETED,Sobol,11961.333674,2022-06-28 03:26:35.867924,2022-06-28 06:45:57.201598,14463.164176,0.672525769653908,0.004828566718914523
99,0.625,9,9_0,3.9758451730012894,3.8214532546699047,4.403944376856089,0.5099078215658664,0.205358749255538,0.9117041979916394,0.8209490487352014,0.8873003385961056,0.7230770997703075,COMPLETED,Sobol,3957.132549,2022-06-28 03:42:21.210143,2022-06-28 04:48:18.342692,7404.30527,0.6257272248432469,0.004838142567011511
1,0.707,10,10_0,4.646414479020244,1.1198323326668567,4.766066810872945,0.9585049924573968,0.9447412209682405,0.950408185073826,0.24409434959226256,0.4401065814344701,0.19844968066937393,COMPLETED,GPEI,29522.324747,2022-06-28 08:27:43.188145,2022-06-28 16:39:45.512892,50091.47547,0.7082802494334839,0.004624358008237182
2,0.703,11,11_0,4.158601454794278,1.0,4.85410898190428,0.8310669977834525,0.8840237424049746,1.0,0.04232031954481751,0.19978834273269053,0.006516744323192175,COMPLETED,GPEI,30050.849593,2022-06-28 08:27:45.690453,2022-06-28 16:48:36.540046,50622.502624,0.7035923814531077,0.00462524801787484
4,0.723,12,12_0,4.149733406521699,1.0,4.240741795071541,0.7675364655193706,0.87062325058816,1.0,0.17071119739153634,0.36110832342303156,0.15647208102729757,COMPLETED,GPEI,29300.620509,2022-06-28 08:27:47.621291,2022-06-28 16:36:08.241800,49874.204378,0.72361816269354,0.004291633103342371
5,0.709,13,13_0,4.88335194602076,1.0,5.0,1.0,0.9814985656295188,1.0,0.17477150184931398,0.29377282786065345,0.01191269043038832,COMPLETED,GPEI,32304.472062,2022-06-28 08:27:50.598329,2022-06-28 17:26:15.070391,52881.032969,0.7093028008272393,0.004458808472145937
6,0.691,14,14_0,3.9834741490439387,1.0,5.0,1.0,0.8803439181060996,0.9271666095428566,0.027873248503520784,0.3091248573829932,0.21522817566909924,COMPLETED,GPEI,29831.434856,2022-06-28 08:27:52.255897,2022-06-28 16:45:03.690753,50409.653331,0.6907789471125336,0.004586856844021674
7,0.729,15,15_0,4.362072151986746,1.0,5.0,0.7962870555964573,0.8582211117531295,1.0,0.3042855977583723,0.3901003032882326,0.01928509340851754,COMPLETED,GPEI,28825.430049,2022-06-28 08:27:56.059725,2022-06-28 16:28:21.489774,49407.452352,0.7285333929995691,0.0041629940470860076
8,0.665,16,16_0,4.840089186656783,1.0,4.821336504265464,0.7768351339112727,1.0,1.0,0.026096753147410116,0.26619060991917176,0.21128062337595982,COMPLETED,GPEI,32510.618392,2022-06-28 08:27:58.899132,2022-06-28 17:29:49.517524,53095.480102,0.6677442091714858,0.004669499459769779
9,0.738,17,17_0,3.8348516597380637,1.0,4.376396333594238,0.976140599050092,1.0,1.0,0.2773210796783553,0.2818410150116245,0.06860614899345192,COMPLETED,GPEI,30451.230411,2022-06-28 08:28:02.994182,2022-06-28 16:55:34.224593,51040.187171,0.7335731874732805,0.004087134862501184
10,0.686,18,18_0,4.560944582845609,1.0,5.0,0.8740718833259853,0.7358455643316798,0.9625231927400703,0.19155500404865275,0.4400927609082799,0.013959021659667815,COMPLETED,GPEI,24367.3591,2022-06-28 16:28:24.406445,2022-06-28 23:14:31.765545,73777.728123,0.6886427249815374,0.004694791032240865
11,0.723,19,19_0,4.2715437367948015,1.0,4.996672910284417,0.6611869883729334,0.9567863449920277,1.0,0.2713461825255109,0.36489124899289865,0.10955599092604706,COMPLETED,GPEI,30330.377031,2022-06-28 16:36:10.382273,2022-06-29 01:01:40.759304,80206.721882,0.7205750711393996,0.004160494687320025
12,0.745,20,20_0,4.343501862050196,1.0,4.459182037066945,0.8327583752566804,0.779516893372903,1.0,0.36532151695920584,0.29778338825671735,0.11652150925764183,COMPLETED,GPEI,24903.338722,2022-06-28 16:39:47.963117,2022-06-28 23:34:51.301839,74997.264417,0.7431364160808307,0.004209282159065289
13,0.723,21,21_0,4.251858403570673,1.0,4.487351699558535,0.7874596524540362,0.8931180463905827,1.0,0.19559834360482745,0.5179304074473478,0.0,COMPLETED,GPEI,31643.410264,2022-06-28 16:45:07.293577,2022-06-29 01:32:30.703841,82056.666419,0.7207640470286174,0.0047261199278493295
14,0.712,22,22_0,4.421987647525462,1.5877328807829925,4.923715759793565,0.7191093228562789,0.8643260992473524,1.0,0.21223311930201713,0.42876013996122375,0.0984643149425319,COMPLETED,GPEI,27436.636077,2022-06-28 16:48:40.493717,2022-06-29 00:25:57.129794,78063.092372,0.7111598947764027,0.004686140854148211
16,0.725,23,23_0,3.8256435963313282,1.0,4.377636083498071,0.8563936194619397,0.952353115057357,1.0,0.35260623492255816,0.35248824646207866,0.0,COMPLETED,GPEI,28338.97478,2022-06-28 16:55:39.159184,2022-06-29 00:47:58.133964,79384.096542,0.725842802609799,0.0039079403203389615
17,0.741,24,24_0,4.001638946231628,1.0,4.617372660073686,0.8375454088321796,0.9845113580869274,1.0,0.38958738832820766,0.18234686497661215,0.11689176520054712,COMPLETED,GPEI,27967.56139,2022-06-28 17:26:18.848644,2022-06-29 01:12:26.410034,80852.372612,0.7420765960678826,0.0043738366441686055
18,0.735,25,25_0,3.8913272854655916,1.0,4.30211929665226,0.9903381756231987,0.8532282386486363,1.0,0.2605643454145613,0.3620891305230963,0.0,COMPLETED,GPEI,28542.657912,2022-06-28 17:29:54.437610,2022-06-29 01:25:37.095522,81643.0581,0.731764811590929,0.004237729245657901
19,0.701,26,26_0,3.64006007819134,1.0,4.937890296207332,0.867030323181051,0.9521543364869988,1.0,0.2761924777934554,0.36162759501696157,0.0278838023358147,COMPLETED,GPEI,29327.686667,2022-06-28 23:14:36.549581,2022-06-29 07:23:24.236248,103110.198826,0.7071414299406387,0.004108748058117058
20,0.743,27,27_0,4.219331947156534,1.225411138383327,4.320638312386661,0.8789871755875294,0.8761798473972496,1.0,0.3550164653223474,0.2483299262502274,0.04503913803398037,COMPLETED,GPEI,27290.153747,2022-06-28 23:34:58.468318,2022-06-29 07:09:48.622065,102294.584643,0.7471134873194059,0.003539202858000587
21,0.746,28,28_0,3.812451963609115,1.0213350751781143,4.638296632127414,0.8510413739436018,0.8542638267042335,1.0,0.3800876427668325,0.27816005852649484,0.16010995450231333,COMPLETED,GPEI,27741.214064,2022-06-29 00:26:04.305430,2022-06-29 08:08:25.519494,105811.482072,0.7439242875539251,0.0038481168177691458
22,0.74,29,29_0,4.206346908309837,1.0,4.61977093729705,0.9560546434277687,0.8604097919089625,1.0,0.3175768562724875,0.21709920802490965,0.13147757663378556,COMPLETED,GPEI,29201.973973,2022-06-29 00:48:11.798718,2022-06-29 08:54:53.772691,108599.735269,0.7468452967759913,0.0034945701851669913
23,0.754,30,30_0,4.532865613823834,1.0,4.126672010088003,0.8534563404360791,0.9073659633976476,1.0,0.35671308391765655,0.2654870935038086,0.11260990676375066,COMPLETED,GPEI,33341.785723,2022-06-29 01:01:50.508282,2022-06-29 10:17:32.294005,113558.256583,0.7544383289738709,0.0033600352544926413
24,0.74,31,31_0,4.234914023273081,1.5541956264905261,4.787010755293586,0.8953514340261817,0.8784427372599215,1.0,0.3534407728677693,0.2174336547779167,0.1157808271439861,COMPLETED,GPEI,24323.782627,2022-06-29 01:12:31.134315,2022-06-29 07:57:54.916942,105180.87952,0.7376619291754837,0.004501318078898712
25,0.761,32,32_0,4.047052250006478,1.0,4.371239833952333,0.9233835132985457,0.8143565226700744,1.0,0.3170028969376504,0.1219958047789109,0.06421539446915776,COMPLETED,GPEI,25887.061011,2022-06-29 01:25:40.691781,2022-06-29 08:37:07.752792,107533.71537,0.7548194159149247,0.003656226409210413
26,0.754,33,33_0,4.3953693785852845,1.0,4.409680916595195,1.0,0.9069913315454552,1.0,0.42508090792945874,0.1747531948604681,0.08807094079033802,COMPLETED,GPEI,32586.970318,2022-06-29 01:32:39.599660,2022-06-29 10:35:46.569978,114652.532556,0.7562562149368136,0.0036400778858665726
28,0.748,34,34_0,4.164646893028949,1.0,4.498899861532264,1.0,0.8790445819456862,1.0,0.4153810521244714,0.29980629645063156,0.19592806763455847,COMPLETED,GPEI,31174.9086,2022-06-29 07:09:59.146159,2022-06-29 15:49:34.054759,133480.017337,0.7488394255206284,0.0037640101229090557
29,0.735,35,35_0,4.271814609901845,1.0,4.43270946180523,1.0,1.0,1.0,0.33014496840238255,0.3129541113310691,0.06508634206924208,COMPLETED,GPEI,32376.253525,2022-06-29 07:23:36.129531,2022-06-29 16:23:12.383056,135498.345634,0.7349790680699416,0.0038125243634448795
30,0.753,36,36_0,4.421260112016249,1.0,4.617363387976784,0.8065128660148765,0.9387493685741979,1.0,0.49039630388689404,0.2747201689503612,0.15392376410496586,COMPLETED,GPEI,28827.698191,2022-06-29 07:58:01.621392,2022-06-29 15:58:29.319583,134015.282161,0.752231495914756,0.003700753931861283
31,0.754,37,37_0,3.918892450551303,1.0,4.136430958629963,0.9964231237690032,0.8246123744955224,1.0,0.40201637035422216,0.19682663240413478,0.20410129521184645,COMPLETED,GPEI,25423.89057,2022-06-29 08:08:33.546776,2022-06-29 15:12:17.437346,131243.399924,0.7490617096075557,0.0039052952703504057
32,0.697,38,38_0,3.9804035552073227,1.0,4.4417023233974575,0.975669970016406,0.8031225077842623,1.0,0.3505248176929251,0.017384297324699732,0.16604902213948686,COMPLETED,GPEI,13566.981748,2022-06-29 08:37:14.707066,2022-06-29 12:23:21.688814,121107.651392,0.7009097544439424,0.004242978316211187
33,0.72,39,39_0,3.9434753804559346,1.0,4.298802403078385,0.8160811314809506,0.7640687641985406,1.0,0.38356004666945426,0.03543895855276882,0.10264455112495835,COMPLETED,GPEI,14379.327808,2022-06-29 08:54:57.520037,2022-06-29 12:54:36.847845,122982.810423,0.717432963680932,0.004238294751386854
34,0.724,40,40_0,4.079404659932349,1.0,3.779859289505066,0.9158565947151035,0.8646514692094531,1.0,0.33221835346369394,0.03898227825834711,0.10741545869092135,COMPLETED,GPEI,19849.830776,2022-06-29 10:17:44.366793,2022-06-29 15:48:34.197569,133420.160147,0.7222330781756751,0.00444859965290645
35,0.688,41,41_0,4.146748270898295,1.0,4.024708331869823,0.9266885446085894,0.8094949393735114,1.0,0.4910782334744081,0.00019904030326806514,0.10962842434284331,COMPLETED,GPEI,6847.752569,2022-06-29 10:36:00.307906,2022-06-29 12:30:08.060475,121514.023053,0.6902123659048176,0.004502629451690868
36,0.761,42,42_0,4.071751474702989,1.0,4.075560507078789,0.9320345680768416,0.8576198532653476,1.0,0.40586475194047683,0.24592509723141015,0.08451522066049941,COMPLETED,GPEI,29910.473085,2022-06-29 12:23:43.268058,2022-06-29 20:42:13.741143,151039.703721,0.755363258902082,0.0028402373348443994
37,0.747,43,43_0,4.187400060507731,1.0,4.044329699008984,0.9803262167180118,0.8608512208376308,1.0,0.3023885895029699,0.18297588057056483,0.023231429640070158,COMPLETED,GPEI,29975.959456,2022-06-29 12:30:16.039851,2022-06-29 20:49:51.999307,151497.961885,0.7503613601505201,0.0033297628368381673
38,0.769,44,44_0,4.342422727723909,1.0,4.4452001304193,0.8352092969529078,0.8619559255930962,1.0,0.3551371348102573,0.17329509523708445,0.03730437940840247,COMPLETED,GPEI,29510.437815,2022-06-29 12:54:48.616708,2022-06-29 21:06:39.054523,152505.017101,0.7594792666767054,0.0024274401060232847
40,0.737,45,45_0,3.9325724787145084,1.0,4.018288710776297,0.8960869030992847,0.802234488162941,0.9420520931393322,0.3563819003247943,0.1880244349349971,0.06234777031973869,COMPLETED,GPEI,23709.731918,2022-06-29 15:12:30.154253,2022-06-29 21:47:39.886171,154965.848749,0.7403477812341462,0.003679522838294263
41,0.736,46,46_0,3.9365173250523564,1.0,3.6546910732506777,0.9106736428661851,0.8104400674959801,1.0,0.3252149329254305,0.19535703200857132,0.07493697894477416,COMPLETED,GPEI,25076.238496,2022-06-29 15:48:44.030965,2022-06-29 22:46:40.269461,158506.232039,0.7418990636584029,0.0035153340582615975
42,0.763,47,47_0,4.169664142845024,1.0,3.4918906578512545,1.0,0.8844323888037924,1.0,0.39200338326567136,0.23581303084395497,0.10057986735698385,COMPLETED,GPEI,31387.482705,2022-06-29 15:49:39.345293,2022-06-30 00:32:46.827998,164872.790576,0.7572278196130595,0.0033687519944226745
43,0.754,48,48_0,4.225405349849135,1.0,3.900985702931566,0.8157449576810346,0.8602253761331546,1.0,0.4999298955437277,0.23965824913429415,0.16452075438069225,COMPLETED,GPEI,29313.421944,2022-06-29 15:58:35.517759,2022-06-30 00:07:08.939703,163334.902281,0.7554421673868263,0.003385715065635901
44,0.743,49,49_0,3.6604631006528994,1.0,3.9596016580569975,1.0,0.8062507372599665,1.0,0.3330471241089715,0.16166136360214836,0.0,COMPLETED,GPEI,24089.745833,2022-06-29 16:23:27.398085,2022-06-29 23:04:57.143918,159603.106496,0.7425160798432611,0.004024756569595721
45,0.75,50,50_0,4.19284861142235,1.0,3.8785750728591766,0.9196823230881596,0.8865391944874749,0.9092434251173293,0.47108996351610904,0.23503931674170847,0.13133198734802617,COMPLETED,GPEI,29598.614245,2022-06-29 20:42:22.262328,2022-06-30 04:55:40.876573,180646.839151,0.7500883820608304,0.004049834348996085
46,0.744,51,51_0,4.167614150424679,1.0,4.348434057333925,0.9179043703143703,0.8078347498790894,1.0,0.5198708796439185,0.21518746046646403,0.08285577831427791,COMPLETED,GPEI,23561.195171,2022-06-29 20:50:00.418357,2022-06-30 03:22:41.613528,175067.576106,0.7492225152929091,0.0038161257006252346
47,0.763,52,52_0,4.294401727479098,1.0,4.192092437613335,0.7353274021434172,0.8234041950215195,1.0,0.4160389419573742,0.17597163712163408,0.05587868349098196,COMPLETED,GPEI,27631.646968,2022-06-29 21:06:52.281329,2022-06-30 04:47:23.928297,180149.890875,0.7593291488912334,0.002858228853125582
48,0.755,53,53_0,4.227825625869192,1.0,4.12695527155535,0.7840864185452721,0.8440954513010502,1.0,0.3873813939034749,0.1837052105644612,0.14199703701183236,COMPLETED,GPEI,28741.065,2022-06-29 21:47:42.057508,2022-06-30 05:46:43.122508,183709.085086,0.7565729893897006,0.003163677264617475
49,0.766,54,54_0,4.61092273840592,1.0,4.557080916254607,0.7291334157786508,0.8630258039333469,1.0,0.4539155152550581,0.19180329829322143,0.0,COMPLETED,GPEI,29985.087833,2022-06-29 22:46:47.797737,2022-06-30 07:06:32.885570,188498.848148,0.7632602906248476,0.0028576494392142464
50,0.768,55,55_0,4.801985579826694,1.0,4.104902888003602,0.9292378077674079,0.8964425248763586,1.0,0.5731246089956303,0.3181089513239929,0.09713291498262973,COMPLETED,GPEI,34684.93159,2022-06-29 23:05:11.117514,2022-06-30 08:43:16.049104,194302.011682,0.7612799890021732,0.003152828804133902
52,0.758,56,56_0,4.069015516126466,1.0,4.468575598441918,0.8236020464686135,0.8367921274509005,1.0,0.4199680674174836,0.17176028208980543,0.021748118103230872,COMPLETED,GPEI,26379.365821,2022-06-30 00:07:23.848779,2022-06-30 07:27:03.214600,189729.177178,0.7586269177448229,0.0031046916895841703
53,0.748,57,57_0,4.219337726712796,1.0,3.5620927032570404,1.0,0.9496519318467803,1.0,0.46314374280177845,0.2686562895689313,0.17598856986519612,COMPLETED,GPEI,29194.392362,2022-06-30 00:32:54.047928,2022-06-30 08:39:28.440290,194074.402868,0.7511882065404901,0.0038265381665523335
54,0.746,58,58_0,4.506530947066141,1.0,3.195155285808912,1.0,0.9063258728831407,1.0,0.46446366109540116,0.34511317435745104,0.12007980072201964,COMPLETED,GPEI,33890.7928,2022-06-30 03:22:49.874086,2022-06-30 12:47:40.666886,208966.629464,0.7477343579848388,0.004345731040601832
55,0.755,59,59_0,4.481212292425214,1.0,3.8896781831870255,0.8047943024828198,0.9203414107777207,1.0,0.43063186619613636,0.18857107189108546,0.0020347075236548076,COMPLETED,GPEI,34177.629961,2022-06-30 04:47:29.878450,2022-06-30 14:17:07.508411,214333.470989,0.7582238386426337,0.0036570204551723165
56,0.758,60,60_0,4.5319404541947375,1.0,4.710841776479892,0.6590496160730215,0.841538312547588,1.0,0.37155170355486067,0.15187590182588448,0.0,COMPLETED,GPEI,29031.135556,2022-06-30 04:55:42.911241,2022-06-30 12:59:34.046797,209680.009375,0.7609073430488357,0.0031822864486639978
57,0.755,61,61_0,4.123166290522605,1.0,3.3445840093853825,1.0,0.9781304195986259,1.0,0.4699024620777252,0.24166108181577511,0.03391105997984193,COMPLETED,GPEI,29525.468218,2022-06-30 05:46:52.443135,2022-06-30 13:58:57.911353,213243.873931,0.7526938240712103,0.004206956858957402
58,0.762,62,62_0,4.49844423601305,1.0,4.494727702812664,0.7759003448663736,0.8527767240689839,1.0,0.38859463409961814,0.12960963952740984,0.0,COMPLETED,GPEI,28805.860512,2022-06-30 07:06:40.720729,2022-06-30 15:06:46.581241,217312.543819,0.7612322607065373,0.0032412127026392114
59,0.753,63,63_0,4.973967599037912,1.0,4.469545043867813,0.7626935707526536,0.8121587380646378,1.0,0.38080764232535524,0.1395624906582576,0.0,COMPLETED,GPEI,28284.543058,2022-06-30 07:27:16.907967,2022-06-30 15:18:41.451025,218027.413603,0.7536354959836288,0.004239490461050792
60,0.761,64,64_0,4.5812822306971235,1.0,4.800942667584184,0.5357409042178225,0.8507103004315534,1.0,0.4454856944147639,0.20448098283165053,0.06352425970471047,COMPLETED,GPEI,31520.128696,2022-06-30 08:39:35.642336,2022-06-30 17:24:55.771032,225601.73361,0.7615361464713204,0.003480817573489909
61,0.762,65,65_0,5.0,1.0,3.9496409217128248,0.7963476262525037,0.8895989634092384,1.0,0.5190607403412973,0.28288629251194736,0.0,COMPLETED,GPEI,33787.628559,2022-06-30 08:43:29.586209,2022-06-30 18:06:37.214768,228103.177346,0.7652198436559406,0.002976958892575309
62,0.768,66,66_0,5.0,1.0,4.349248733963311,0.6189582811630479,0.8684254275466802,1.0,0.5654326364483717,0.31334777443172396,0.055371722817093724,COMPLETED,GPEI,32801.443272,2022-06-30 12:47:55.399711,2022-06-30 21:54:36.842983,241782.805561,0.7667131548316952,0.002434018867248824
64,0.767,67,67_0,5.0,1.0,4.0780335481312875,0.9829899430216232,0.8927677586953308,1.0,0.5190993500994028,0.26251557158350425,0.015745062427775767,COMPLETED,GPEI,34692.557005,2022-06-30 12:59:38.485227,2022-06-30 22:37:51.042232,244377.00481,0.765092157912693,0.0031189541211472296
65,0.76,68,68_0,5.0,1.0,4.098004491061122,0.7433892912325011,0.9480056272171546,1.0,0.6050530456065892,0.2574573687214152,0.0,COMPLETED,GPEI,32974.410052,2022-06-30 13:59:09.600926,2022-06-30 23:08:44.010978,246229.973556,0.7590989868649225,0.003625732289481924
66,0.753,69,69_0,5.0,1.0,3.999426277094669,0.7460166797497295,0.8843852900752383,1.0,0.5754210284267848,0.39694882182685554,0.0,COMPLETED,GPEI,33754.493433,2022-06-30 14:17:17.855621,2022-06-30 23:39:52.349054,248098.311632,0.7520367007796801,0.004493332222514553
67,0.765,70,70_0,5.0,1.0,4.380146423057422,0.7776309283467789,0.8573513728847227,1.0,0.5300592859963962,0.31025928923510154,0.10127172377767647,COMPLETED,GPEI,31204.876442,2022-06-30 15:06:57.450689,2022-06-30 23:47:02.327131,248528.289709,0.76582970968615,0.0024853213604899187
68,0.751,71,71_0,5.0,1.0,4.26070481421646,1.0,0.9441695364427138,1.0,0.6328199952667891,0.28962235653698837,0.0,COMPLETED,GPEI,31524.668423,2022-06-30 15:18:59.304407,2022-07-01 00:04:23.972830,249569.935408,0.7536516456412197,0.003912406704146147
69,0.766,72,72_0,5.0,1.0,4.2641008626151855,0.6133221348467096,0.8694932965551334,1.0,0.5456376178564708,0.2226038998999972,0.08040597993251614,COMPLETED,GPEI,33300.352259,2022-06-30 17:25:09.391346,2022-07-01 02:40:09.743605,258915.706183,0.7680536624080394,0.0029541134271531197
70,0.754,73,73_0,5.0,1.0,4.4235114296870295,0.6574967222588833,0.8441626046276627,1.0,0.605207484815468,0.3361911951658925,0.21918468296708532,COMPLETED,GPEI,30667.889941,2022-06-30 18:06:50.508214,2022-07-01 02:37:58.398155,258784.360733,0.7552050059776596,0.004207041774281015
71,0.756,74,74_0,5.0,1.0,4.666987077347576,0.6419203299057493,0.9268799425393178,1.0,0.6093894929542287,0.30807651422337695,0.0,COMPLETED,GPEI,31427.862236,2022-06-30 21:55:02.121517,2022-07-01 06:38:49.983753,273235.946331,0.758943270114991,0.003504425974510924
72,0.765,75,75_0,5.0,1.0,4.166008600504731,0.714062995990155,0.8492259038142228,1.0,0.5233124049379966,0.3004566847036142,0.13235241845096662,COMPLETED,GPEI,30430.663042,2022-06-30 22:38:11.941485,2022-07-01 07:05:22.604527,274828.567105,0.7650465763102448,0.0027674474312157746
73,0.77,76,76_0,5.0,1.0,4.750154529076237,0.7694426615233911,0.8588966654619455,1.0,0.6091054142140386,0.28293361484009777,0.021806100918019655,COMPLETED,GPEI,31723.774826,2022-06-30 23:08:58.823192,2022-07-01 07:57:42.598018,277968.560596,0.7662467764776756,0.0028538194447672587
74,0.767,77,77_0,5.0,1.0,5.0,0.42041829247197504,0.8757653423095976,1.0,0.6662536134157179,0.298063254760876,0.07669245551918336,COMPLETED,GPEI,35620.692477,2022-06-30 23:40:00.023466,2022-07-01 09:33:40.715943,283726.678521,0.765496937643384,0.0036284657798521295
76,0.766,78,78_0,5.0,1.0,4.435772243169133,0.7465823433991461,0.9011104425476071,1.0,0.508216876803368,0.29849341595876205,0.035399016264131104,COMPLETED,GPEI,35870.616418,2022-06-30 23:47:13.141499,2022-07-01 09:45:03.757917,284409.720495,0.7644316659033755,0.002625279427519464
77,0.769,79,79_0,5.0,1.0,3.9465816405131835,0.9143700371434463,0.8801098434477532,1.0,0.5394015616571984,0.2623674135646081,0.10180580718873067,COMPLETED,GPEI,32171.29562,2022-07-01 00:04:43.214810,2022-07-01 09:00:54.510430,281760.473008,0.7663847232439395,0.0030365100289901537
78,0.752,80,80_0,4.602608269087118,1.0,4.148262530255305,0.7315414195787251,0.8709143437418657,1.0,0.5641124709549773,0.2993550225722249,0.047146091320682246,COMPLETED,GPEI,30773.717413,2022-07-01 02:38:25.915398,2022-07-01 11:11:19.632811,289585.595389,0.759843376393277,0.0033416014020813197
79,0.765,81,81_0,5.0,1.0,4.413975878807014,0.6012663543590001,0.8901508117178762,0.9230244810916837,0.548058617251955,0.2728677330343933,0.05889515665631508,COMPLETED,GPEI,34770.250539,2022-07-01 02:40:25.704365,2022-07-01 12:19:55.954904,293701.917482,0.7637726596237432,0.0038717606670587426
80,0.769,82,82_0,5.0,1.0,4.4845365151684184,0.7203366972715649,0.8826724360016874,1.0,0.5154677930134255,0.25057820501362904,0.0759693315036581,COMPLETED,GPEI,32565.560986,2022-07-01 06:39:00.308985,2022-07-01 15:41:45.869971,305811.832549,0.7674959043420677,0.0024435261540520507
81,0.766,83,83_0,5.0,1.0,4.188926458928572,0.37804784467056773,0.8910033278265871,1.0,0.5186238647548194,0.29324534910181377,0.09462224361045622,COMPLETED,GPEI,35498.858,2022-07-01 07:05:32.524345,2022-07-01 16:57:11.382345,310337.344923,0.7656685246937646,0.0036403810624589658
82,0.775,84,84_0,5.0,1.0,4.204354619059824,0.7271818647091997,0.835691858254989,1.0,0.635476742223639,0.2813997592964331,0.02474416977595723,COMPLETED,GPEI,29145.914537,2022-07-01 07:58:03.138714,2022-07-01 16:03:49.053251,307135.015829,0.7675408167558173,0.0027251712776097674
83,0.74,85,85_0,5.0,1.4649024578775394,4.363355679653948,0.749377982404137,0.8606673935771153,1.0,0.6103355313122202,0.28284312785414456,0.06707864127282379,COMPLETED,GPEI,27260.031615,2022-07-01 09:01:05.637545,2022-07-01 16:35:25.669160,309031.631738,0.7423981910637988,0.004525945161787091
84,0.767,86,86_0,5.0,1.0,4.910825958288337,0.598819845573429,0.8498912974848928,1.0,0.6539351329228211,0.24631358453163008,0.074653393343232,COMPLETED,GPEI,31345.858868,2022-07-01 09:34:02.249203,2022-07-01 18:16:28.108071,315094.070649,0.7669217765749056,0.002829208630625483
85,0.762,87,87_0,5.0,1.0,4.822381510402597,0.4172701736051685,0.8137994033831684,1.0,0.6253366718995055,0.26568546266670634,0.0,COMPLETED,GPEI,29949.676139,2022-07-01 09:45:21.254219,2022-07-01 18:04:30.930358,314376.892936,0.7643794727490687,0.0035089590693547293
86,0.763,88,88_0,5.0,1.0,5.0,0.5934560792548632,0.8458149006957164,1.0,0.5469820634089427,0.2708377449371469,0.07442833784417827,COMPLETED,GPEI,30306.021263,2022-07-01 11:11:44.460807,2022-07-01 19:36:50.482070,319916.444648,0.7649200632766674,0.003083754948625593
88,0.767,89,89_0,5.0,1.0,5.0,0.4317749349729474,0.8673897519306148,1.0,0.6146270409879956,0.20578430640988668,0.0,COMPLETED,GPEI,35348.511051,2022-07-01 12:20:09.360946,2022-07-01 22:09:17.871997,329063.834575,0.7663653283769964,0.003712320998375326
89,0.767,90,90_0,5.0,1.0,5.0,0.6874320957235397,0.8798364096446935,1.0,0.5934156619079611,0.22526957165929706,0.08380377124059916,COMPLETED,GPEI,33640.681613,2022-07-01 15:42:19.660302,2022-07-02 01:03:00.341915,339486.304493,0.7652459834074258,0.0032583521857510503
90,0.754,91,91_0,5.0,1.0,4.686570878496526,0.5644817802839186,0.8024752421926701,0.9332569647759378,0.7601966763945855,0.2865647704545218,0.034749178182000934,COMPLETED,GPEI,29255.314397,2022-07-01 16:04:06.738878,2022-07-02 00:11:42.053275,336408.015853,0.7549261991349038,0.0042453597826547776
91,0.764,92,92_0,5.0,1.0,4.267864081762612,0.26371821642614224,0.8072257799225552,1.0,0.7282561476247023,0.27123655611339526,0.0,COMPLETED,GPEI,31002.908009,2022-07-01 16:35:47.943572,2022-07-02 01:12:30.851581,340056.814159,0.7641201239614381,0.003984651495066199
92,0.773,93,93_0,5.0,1.0,4.3427562569927805,0.4748123744798082,0.8349076556093703,1.0,0.6911386538759959,0.2610469625253065,0.0649119296273736,COMPLETED,GPEI,31211.308698,2022-07-01 16:57:32.890596,2022-07-02 01:37:44.199294,341570.161872,0.7692513671860159,0.002946530845389133
93,0.761,94,94_0,5.0,1.0,4.083190601932216,1.0,0.816626765572952,1.0,0.6231160575595512,0.2921050649531872,0.06678305480743109,COMPLETED,GPEI,28351.024419,2022-07-01 18:05:01.513879,2022-07-02 01:57:32.538298,342758.500876,0.7620351549764526,0.0038946816116916215
94,0.763,95,95_0,5.0,1.0,4.30401329789184,0.6464293150068455,0.8717603808137655,1.0,0.635583999243145,0.2733254669145242,0.09549671013873033,COMPLETED,GPEI,31290.158723,2022-07-01 18:16:47.924523,2022-07-02 02:58:18.083246,346404.045824,0.7688357908665288,0.0026386701082673873
95,0.772,96,96_0,5.0,1.0,4.241438655250624,0.1,0.8859912971341989,1.0,0.675431613563004,0.28750282443677594,0.10218391992901543,COMPLETED,GPEI,34714.677944,2022-07-01 19:36:56.001699,2022-07-02 05:15:30.679643,354636.642221,0.7701847849804381,0.004145711758255779
96,0.768,97,97_0,5.0,1.0,4.809200027797569,0.1,0.90998354335914,1.0,0.5891779395211154,0.21466152555787266,0.10081312485960849,COMPLETED,GPEI,35691.88196,2022-07-01 22:09:34.572696,2022-07-02 08:04:26.454656,364772.417234,0.7676468538787286,0.0041629907619123736
97,0.766,98,98_0,5.0,1.0,4.0789796950092185,0.1,0.9103057629194199,1.0,0.5594505256222678,0.19410762678956658,0.0,COMPLETED,GPEI,33810.263782,2022-07-02 00:11:55.413544,2022-07-02 09:35:25.677326,370231.639904,0.7650415713385096,0.0043675129941194045
98,0.764,99,99_0,5.0,1.0,4.354949452418534,0.6811437311867797,0.8547180114308497,1.0,0.6000526279930597,0.2225363719635198,0.0,COMPLETED,GPEI,24905.599451,2022-07-02 01:03:21.379480,2022-07-02 07:58:26.978931,364412.941509,0.7665062387534793,0.0031335512478250374
