,vol_frac,trial_index,arm_name,mu1,mu2,mu3,std1,std2,std3,comp1,comp2,comp3,trial_status,generation_method,runtime,trial_start_datetime,trial_complete_datetime,time_elapsed,vol_frac_pred,vol_frac_sigma
0,0.669,0,0_0,3.90883207321167,1.4598201215267181,3.9024465084075928,0.391926908493042,0.3216787278652191,0.11284876856952906,0.44999873638153076,0.21019288897514343,0.9040491580963135,COMPLETED,Sobol,2412.159783,2022-06-24 01:57:12.870628,2022-06-24 02:37:25.030411,2412.159783,0.6687243021213174,0.0041889542046974725
3,0.707,1,1_0,1.4832294322550297,4.622854020446539,1.8770184107124805,0.997223609406501,0.7808865854516626,0.9148976150900126,0.9055434931069613,0.5258402321487665,0.43215073738247156,COMPLETED,Sobol,21328.497309,2022-06-24 01:57:13.084057,2022-06-24 07:52:41.581366,21328.710738,0.7058639445678543,0.004113729046998265
15,0.668,2,2_0,2.3698662742972374,2.375256072729826,4.291841842234135,0.3178933111950755,0.6480241171084344,0.587454919051379,0.07985372375696898,0.9669664707034826,0.08809249103069305,COMPLETED,Sobol,11952.789163,2022-06-24 01:57:13.230666,2022-06-24 05:16:26.019829,11953.149201,0.6684491968156003,0.004185147425818596
27,0.628,3,3_0,4.803502395749092,3.542317498475313,2.301587648689747,0.6124872080050409,0.4560037586838007,0.4895196576602757,0.5022566327825189,0.2689415169879794,0.6221247101202607,COMPLETED,Sobol,2728.150318,2022-06-24 01:57:13.370292,2022-06-24 02:42:41.520610,2728.649982,0.6288545641379,0.004188024467755117
39,0.608,4,4_0,4.242781966924667,2.870648719370365,1.072709333151579,0.742345878854394,0.42188976816833024,0.28535322081297637,0.14233722537755966,0.8509648954495788,0.20513715036213398,COMPLETED,Sobol,5183.870503,2022-06-24 01:57:13.531860,2022-06-24 03:23:37.402363,5184.531735,0.6095150278744161,0.004192605389852068
51,0.647,5,5_0,2.67668429762125,3.2037246376276016,3.0825181417167187,0.19330993862822654,0.68070720275864,0.8341830760240555,0.689736919477582,0.41617687977850437,0.7394631011411548,COMPLETED,Sobol,6432.184455,2022-06-24 01:57:13.692431,2022-06-24 03:44:25.876886,6433.006258,0.6476759169852446,0.0041911356272975875
63,0.68,6,6_0,1.5317428298294544,1.7940192222595215,2.7467886358499527,0.860333445481956,0.9978103937581182,0.7670073582790792,0.26248745154589415,0.10786408744752407,0.7710132990032434,COMPLETED,Sobol,16956.984521,2022-06-24 01:57:13.854996,2022-06-24 06:39:50.839517,16957.968889,0.6799457226607895,0.004193190553301116
75,0.648,7,7_0,3.1064085625112057,4.130878560245037,4.721427366137505,0.5094797066412866,0.10618046084418893,0.4158213482238352,0.8430299470201135,0.6594047350808978,0.2995535610243678,COMPLETED,Sobol,5587.169061,2022-06-24 01:57:14.028533,2022-06-24 03:30:21.197594,5588.326966,0.6491031742914977,0.004180610599560347
87,0.697,8,8_0,3.319310586899519,2.0433245599269867,2.842762354761362,0.1380267383530736,0.856350181531161,0.5442271100357176,0.2356300950050354,0.8102383501827717,0.17579786852002144,COMPLETED,Sobol,18569.790056,2022-06-24 02:37:25.070303,2022-06-24 07:46:54.860359,20981.989731,0.696100130325715,0.004184646013688619
99,0.715,9,9_0,1.7603081203997135,3.882122538983822,4.813441906124353,0.6868575449101627,0.24591558352112772,0.642164533957839,0.6589497420936823,0.48525258246809244,0.6437948169186711,COMPLETED,Sobol,12240.26312,2022-06-24 02:42:41.563494,2022-06-24 06:06:41.826614,14968.955986,0.7156271195198588,0.0031500656228571236
1,0.72,10,10_0,1.2884477775012342,3.9725859103947188,4.617407565304319,0.7995307834613055,0.32075187479493417,0.7163123926117263,0.6640056531033426,0.4663074112631177,0.6707296128671552,COMPLETED,GPEI,23937.486425,2022-06-24 07:52:42.866902,2022-06-24 14:31:40.353327,45267.482699,0.7209937729001235,0.003909580249680299
2,0.705,11,11_0,1.6251877001752497,3.659456220874806,5.0,0.6270005763660725,0.13762578033458805,0.6162158806659707,0.5682924782894886,0.44633896067647894,0.7626773220200735,COMPLETED,GPEI,12260.949588,2022-06-24 07:52:44.492555,2022-06-24 11:17:05.442143,33592.571515,0.7052591233922139,0.003893282282587373
4,0.712,12,12_0,2.0986810156669655,4.210939872676799,5.0,0.7099843589403986,0.3764994162347036,0.7242836028837895,0.7013620642321375,0.5168121710750355,0.5781351254207586,COMPLETED,GPEI,17074.80219,2022-06-24 07:52:46.093274,2022-06-24 12:37:20.895464,38408.024836,0.710489272128525,0.003861335293196418
5,0.721,13,13_0,1.3975322324698876,3.3165047646534447,4.988806936466283,0.7114845244493848,0.2694885433924289,0.5218829503205595,0.7321663278688779,0.4407612150252316,0.580039691205952,COMPLETED,GPEI,18319.568636,2022-06-24 07:52:48.310346,2022-06-24 12:58:07.878982,39655.008354,0.7192892994256879,0.003911535377697019
6,0.699,14,14_0,1.3778605313371637,4.411037506374752,2.8177356260536737,0.9353730827596756,0.6128018925130237,0.8344925835232716,0.8394701800008654,0.5159891369363554,0.48791780721832845,COMPLETED,GPEI,27116.565581,2022-06-24 07:52:49.633806,2022-06-24 15:24:46.199387,48453.328759,0.6997306718227367,0.004079520655512686
7,0.727,15,15_0,1.6655498984330324,4.45569574069664,4.259943082752075,0.7130667964084495,0.13415183970080496,0.69777680447929,0.6737447819377892,0.561889250996684,0.6428219341494895,COMPLETED,GPEI,18299.867068,2022-06-24 07:52:52.596882,2022-06-24 12:57:52.463950,39639.593322,0.7259263369137198,0.0035399316193414055
8,0.728,16,16_0,1.7389536185953811,4.049187559423029,4.931413229913806,0.7251774426196262,0.2330528066790108,0.619261483324254,0.41338116030773864,0.47887647054119,0.5560779688667844,COMPLETED,GPEI,18475.663103,2022-06-24 07:52:56.555298,2022-06-24 13:00:52.218401,39819.347773,0.7264564401578029,0.0036915796541743184
9,0.693,17,17_0,2.144574403652385,3.5997450383437783,5.0,0.6608603519015631,0.2993672210185386,0.6801343626882776,0.7748698048362573,0.454977151772,0.7920916382122368,COMPLETED,GPEI,13749.262327,2022-06-24 07:53:00.365110,2022-06-24 11:42:09.627437,35096.756809,0.693560951723655,0.00402088982780362
10,0.697,18,18_0,1.3381497906503648,4.306648215079308,5.0,0.5410673620251109,0.24106920518450217,0.6985619741470064,0.6235851135454823,0.4218031073455415,0.6164651220956682,COMPLETED,GPEI,8533.803813,2022-06-24 11:17:07.906552,2022-06-24 13:39:21.710365,42128.839737,0.6976241341268354,0.004033375635140324
11,0.71,19,19_0,1.8070260416697668,3.7113955345103276,4.958605899467777,0.7700551222801506,0.17650829111344066,0.689215916859053,0.5976852226550228,0.6552206324728314,0.7056603214496212,COMPLETED,GPEI,18744.549957,2022-06-24 11:42:12.331205,2022-06-24 16:54:36.881162,53844.010534,0.7127445588365573,0.0037958793985891407
12,0.709,20,20_0,1.7609887412576173,4.6331777334027855,5.0,0.6738348529469073,0.3208261638118187,0.6223030107368118,0.6205980948703855,0.35283762051984563,0.6406495627747977,COMPLETED,GPEI,14760.918167,2022-06-24 12:37:22.531048,2022-06-24 16:43:23.449215,53170.578587,0.710426633271567,0.003800106286226046
13,0.736,21,21_0,1.684677442139882,4.328056166047588,4.5384242994566595,0.7308147871617335,0.1060228574250145,0.8349624641078213,0.6398734792000831,0.5163934545299227,0.5467058441568516,COMPLETED,GPEI,18884.864699,2022-06-24 12:57:55.898630,2022-06-24 18:12:40.763329,58527.892701,0.7310300833245785,0.0033721664969830843
14,0.721,22,22_0,1.2768446115959096,4.3241359928015655,4.465388728415068,0.7680274739742879,0.1758970494681419,0.5855221682268892,0.7998652387508478,0.5943729280650091,0.533235146671534,COMPLETED,GPEI,22313.940863,2022-06-24 12:58:11.579516,2022-06-24 19:10:05.520379,61972.649751,0.7212986691086818,0.004015498577345979
16,0.726,23,23_0,1.2869911426805865,4.19903877797248,4.086806742129151,0.7624208215478665,0.20600250534987158,0.6274174676919403,0.48081203249308696,0.5076892435162372,0.4557765191340245,COMPLETED,GPEI,21498.449989,2022-06-24 13:00:55.025309,2022-06-24 18:59:13.475298,61320.60467,0.7267615618522749,0.003340504433343502
17,0.736,24,24_0,1.549806210450432,4.7202715514709634,4.863805239737609,0.8299896171603961,0.14399896506539997,0.5947343591123505,0.5321516827469873,0.5018073356231475,0.6045122532733709,COMPLETED,GPEI,24130.707785,2022-06-24 13:39:25.285903,2022-06-24 20:21:35.993688,66263.12306,0.7354436807436016,0.003420754309228842
18,0.735,25,25_0,1.4451643777412726,4.302226117149403,4.544163035354048,0.7577223365587039,0.2425831213861363,0.6950451054986675,0.43160842057733956,0.7059600641868637,0.5812935416673415,COMPLETED,GPEI,20058.005767,2022-06-24 14:31:43.066584,2022-06-24 20:06:01.072351,65328.201723,0.7354597757419081,0.003116065743403445
19,0.72,26,26_0,1.44616302936353,3.696967963984935,5.0,0.8114086618102191,0.1,0.6169265815244814,0.5491207198495968,0.40803606699276257,0.46350657791463007,COMPLETED,GPEI,22870.393627,2022-06-24 15:24:51.984964,2022-06-24 21:46:02.378591,71329.507963,0.7215077409276768,0.0037826253250600253
20,0.734,27,27_0,1.3786141794519626,4.253906275705357,4.189492753089397,0.7709652068627049,0.2254767589263954,0.48847402551011043,0.4894760614321253,0.5303898851236191,0.6117762026727024,COMPLETED,GPEI,21473.750433,2022-06-24 16:43:28.011957,2022-06-24 22:41:21.762390,74648.891762,0.7308380021715244,0.0032255635423061755
21,0.711,28,28_0,1.6634222204056204,3.973467698305839,3.945070513803958,0.7623847358992171,0.16979874522029592,0.700284470594427,0.4761221437938875,0.3964308210531396,0.5411747308074956,COMPLETED,GPEI,20221.002337,2022-06-24 16:54:40.712841,2022-06-24 22:31:41.715178,74068.84455,0.7141945019891378,0.003576031056891358
22,0.728,29,29_0,1.3823704299909105,4.676423744352019,4.86138884294451,0.757937714608967,0.1,0.7648555858672255,0.5522600861095147,0.5096306293619669,0.4597617583117679,COMPLETED,GPEI,21515.145897,2022-06-24 18:12:47.893453,2022-06-25 00:11:23.039350,80050.168722,0.7312256583252578,0.003359231275401142
23,0.73,30,30_0,1.642013705512291,4.644910173114377,4.32432950762076,0.7479191437395186,0.1457888674649141,0.8803091159263271,0.43032688996781315,0.5013332935395352,0.5430375164854201,COMPLETED,GPEI,19832.210537,2022-06-24 18:59:23.036378,2022-06-25 00:29:55.246915,81162.376287,0.7286507633720363,0.0034118973879610813
24,0.735,31,31_0,1.3505201511876093,3.8135545537937294,4.888343206900943,0.7303103366447583,0.1752484574981047,0.8308669917619083,0.5380763343759646,0.5024302506934476,0.4294577595222226,COMPLETED,GPEI,19409.205612,2022-06-24 19:10:12.551008,2022-06-25 00:33:41.756620,81388.885992,0.7309816418701024,0.0035209875430457028
25,0.724,32,32_0,1.4884417747041925,4.584782678302138,4.411303027227001,0.734596591634634,0.1581479956216561,0.8517095213338555,0.5335660421367556,0.6969602306286766,0.5165794714585716,COMPLETED,GPEI,19943.291701,2022-06-24 20:06:07.956264,2022-06-25 01:38:31.247965,85278.377337,0.7271085971330098,0.003392112946941566
26,0.739,33,33_0,1.6482576667285724,4.799205070529599,4.61924129347487,0.8217622110060032,0.1082280718810474,0.7778310146882008,0.45057736301098184,0.5978398104684873,0.5397182880929329,COMPLETED,GPEI,23346.345585,2022-06-24 20:21:45.030012,2022-06-25 02:50:51.375597,89618.504969,0.7380594006573666,0.0032699122722913273
28,0.745,34,34_0,1.3341788081744599,4.750171986633858,4.814689287240036,0.7723286342523364,0.1,0.7489687216316764,0.4087049851094662,0.5639579160330771,0.60195818509543,COMPLETED,GPEI,22104.147082,2022-06-24 21:46:13.492601,2022-06-25 03:54:37.639683,93444.769055,0.7455327752580145,0.0029302620898253987
29,0.742,35,35_0,1.4188818981821623,4.852629814325411,5.0,0.7839027686979755,0.2483762240707813,0.7507269809884454,0.46402593348875104,0.5955747131392243,0.4560556942888221,COMPLETED,GPEI,22448.69713,2022-06-24 22:31:49.738409,2022-06-25 04:45:58.435539,96525.564911,0.7408810449437774,0.0033890770673600887
30,0.752,36,36_0,1.2092481872152407,4.544479061050584,4.887894400451792,0.7833439514896899,0.24136333316743655,0.4715010439120104,0.38144892845894685,0.6050851577039328,0.5771174666808103,COMPLETED,GPEI,23205.241973,2022-06-24 22:41:28.641083,2022-06-25 05:08:13.883056,97861.012428,0.7518564220184977,0.002951816709502022
31,0.734,37,37_0,1.577441982020174,4.535477845267755,4.53215052758012,0.7934526218171015,0.20992658240376194,0.6323833769738442,0.4934805885276876,0.5926945845963685,0.559423752650115,COMPLETED,GPEI,22159.151221,2022-06-25 00:11:27.743918,2022-06-25 06:20:46.895139,102214.024511,0.7335606690717761,0.0026639895796890787
32,0.747,38,38_0,1.4973682014606247,5.0,4.365563633783223,0.8285642385484369,0.3025474454544651,0.5408562753939467,0.3394215697666002,0.6258353721182487,0.6030000074447582,COMPLETED,GPEI,24848.530038,2022-06-25 00:30:02.549855,2022-06-25 07:24:11.079893,106018.209265,0.748716131868854,0.0035847839681722206
33,0.733,39,39_0,1.2767364329299968,4.077786849621948,4.706438982664528,0.7479207335603675,0.13061913093378827,0.7703209626696446,0.4652523610065876,0.5917540779004168,0.5619301332954114,COMPLETED,GPEI,20502.92183,2022-06-25 00:33:54.363122,2022-06-25 06:15:37.284952,101904.414324,0.733654228096956,0.00312008067655801
34,0.747,40,40_0,1.30182514379884,4.384525503064209,4.643919463898039,0.787422258352756,0.10724974577811731,0.6226199699683338,0.35984813777501234,0.5884705735338975,0.6466712286211409,COMPLETED,GPEI,22570.392924,2022-06-25 01:38:37.661937,2022-06-25 07:54:48.054861,107855.184233,0.7459905267855209,0.003020394658541224
35,0.74,41,41_0,1.5098607328375233,4.248942196999787,4.853633391622182,0.8408922578336786,0.24223028000092464,0.7442044212649632,0.3757792971069334,0.6029344525238083,0.5218759435894319,COMPLETED,GPEI,24110.80296,2022-06-25 02:51:00.610708,2022-06-25 09:32:51.413668,113738.54304,0.7414460723993475,0.0034908678376881675
36,0.755,42,42_0,1.1988957725114497,4.825786009704706,4.416514778940126,0.8314934530992115,0.1,0.6638236248872578,0.3297055403423095,0.6255934505035433,0.6702174867296353,COMPLETED,GPEI,27018.834886,2022-06-25 03:54:43.700099,2022-06-25 11:25:02.534985,120469.664357,0.7559841813030582,0.003072077387875778
37,0.758,43,43_0,1.2445420056429826,4.7014268376282775,5.0,0.8008814924133739,0.26546253070179837,0.7359153349724801,0.32838623420527524,0.5991303860562859,0.5846582619346173,COMPLETED,GPEI,23769.887272,2022-06-25 04:46:13.671076,2022-06-25 11:22:23.558348,120310.68772,0.7558725130755796,0.0027090424328422916
38,0.745,44,44_0,1.2060058701310472,4.877395183160735,5.0,0.8073136296547551,0.22581792146248997,0.5290726378456645,0.21765547926409554,0.6356031488545487,0.5705919662924025,COMPLETED,GPEI,27793.644068,2022-06-25 05:08:20.707144,2022-06-25 12:51:34.351212,125661.480584,0.7479290138461029,0.002869742613002783
40,0.756,45,45_0,1.3138185177373978,5.0,5.0,0.7777566876342458,0.26140635051643546,0.544559536959979,0.35482795033626485,0.6230670439677234,0.6444554515530289,COMPLETED,GPEI,22922.646715,2022-06-25 06:15:43.590646,2022-06-25 12:37:46.237361,124833.366733,0.7553538416786592,0.0029316218312859647
41,0.754,46,46_0,1.0,4.504083406287144,5.0,0.7954164659176725,0.4013504458640089,0.4878722550440908,0.2512789644885476,0.607723369438483,0.5327056747090154,COMPLETED,GPEI,25527.260121,2022-06-25 06:20:52.661443,2022-06-25 13:26:19.921564,127747.050936,0.7524144243537628,0.003624452109143433
42,0.771,47,47_0,1.0,5.0,5.0,0.8553802159364946,0.2219754890401668,0.5265001030116795,0.2641043370525446,0.6341767442539081,0.671496658971454,COMPLETED,GPEI,31606.624962,2022-06-25 07:24:16.439308,2022-06-25 16:11:03.064270,137630.193642,0.7658066549368227,0.0023098427725993156
43,0.737,48,48_0,1.397773286627919,5.0,5.0,0.7968625778778794,0.11271321160355383,0.48496122605899694,0.20463698025362048,0.6133866434069835,0.669403658776953,COMPLETED,GPEI,26630.487294,2022-06-25 07:54:52.761459,2022-06-25 15:18:43.248753,134490.378125,0.7350413058317528,0.0035646420898259286
44,0.752,49,49_0,1.1209954866856322,5.0,5.0,0.7905436221500095,0.3345337901977686,0.6302220409760332,0.20222308499827205,0.586256129480035,0.6778101469278578,COMPLETED,GPEI,25388.787931,2022-06-25 09:33:15.729692,2022-06-25 16:36:24.517623,139151.646995,0.748562740787966,0.0034452832127716752
45,0.757,50,50_0,1.0,5.0,5.0,0.8415014000267009,0.25843451042983734,0.7385424325054194,0.21484072891517747,0.6972311325858083,0.583396274956777,COMPLETED,GPEI,31936.410833,2022-06-25 11:22:31.033499,2022-06-25 20:14:47.444332,152254.573704,0.7543879989108632,0.0031925670240464405
46,0.762,51,51_0,1.1147182358291408,5.0,5.0,0.8325858231978387,0.23384491059237933,0.6766666839821469,0.299050527349223,0.6087429313134319,0.7507268807554961,COMPLETED,GPEI,27992.842858,2022-06-25 11:25:16.694118,2022-06-25 19:11:49.536976,148476.666348,0.7642351375501032,0.002406505353265548
47,0.707,52,52_0,1.197852968523404,5.0,5.0,0.8212431198264503,0.1559638211447099,0.6937634485662262,0.11103849754704583,0.6169065132571938,0.6381343335768617,COMPLETED,GPEI,34599.826867,2022-06-25 12:37:50.218110,2022-06-25 22:14:30.044977,159437.174349,0.7115794271411834,0.003841446705581601
48,0.767,53,53_0,1.0,5.0,4.918715294449086,0.8238811073103073,0.2588080629131919,0.6528675093125964,0.3596935250821969,0.6005933901869203,0.653268278113085,COMPLETED,GPEI,28250.799243,2022-06-25 12:51:42.413240,2022-06-25 20:42:33.212483,153920.341855,0.7653916442398087,0.002425279622707626
49,0.748,54,54_0,1.0,4.743090056283716,5.0,0.7815614866931828,0.4090365703169542,0.6350910151894374,0.3324314058801744,0.5834296907507688,0.642746516155707,COMPLETED,GPEI,24764.137941,2022-06-25 13:26:30.066707,2022-06-25 20:19:14.204648,152521.33402,0.7517737030226243,0.0033530463402946854
50,0.766,55,55_0,1.0,5.0,5.0,0.8557668193670078,0.33203263704101954,0.6822952726601597,0.3584285362702599,0.6477350439061492,0.7696190388079172,COMPLETED,GPEI,29942.447258,2022-06-25 15:18:50.970982,2022-06-25 23:37:53.418240,164440.547612,0.7652197503930046,0.0027471093431524415
52,0.764,56,56_0,1.0,5.0,5.0,0.8876865065071131,0.29375864153342085,0.5358188510675452,0.3178553580448764,0.5838008212124673,0.742431411002471,COMPLETED,GPEI,31735.269631,2022-06-25 16:11:12.034040,2022-06-26 01:00:07.303671,169374.433043,0.7682317071543439,0.0021171663382596045
53,0.778,57,57_0,1.0,5.0,5.0,0.8922009430248117,0.290215685598019,0.5281397477354172,0.3241833926040952,0.7123182748193141,0.7578967061770541,COMPLETED,GPEI,34110.636909,2022-06-25 16:36:43.000151,2022-06-26 02:05:13.637060,173280.766432,0.7703074506315483,0.001518296017706448
54,0.77,58,58_0,1.0,5.0,5.0,0.8835090788698055,0.30084017812066766,0.5508204042865977,0.3340436061001452,0.6174235774385483,0.6459225408572206,COMPLETED,GPEI,31747.064489,2022-06-25 19:12:06.603045,2022-06-26 04:01:13.667534,180240.796906,0.7687338690682507,0.0021693357399754933
55,0.763,59,59_0,1.0,5.0,5.0,0.9285668636778517,0.19520344604983944,0.46238117516354127,0.3310418505521481,0.6860196675409129,0.6931453036426383,COMPLETED,GPEI,29984.900152,2022-06-25 20:15:04.971942,2022-06-26 04:34:49.872094,182257.001466,0.7671306835467191,0.002857898452508121
56,0.775,60,60_0,1.0,5.0,5.0,0.8848688071091375,0.20156962054485822,0.624819141634613,0.31239062835018216,0.5980706062176747,0.6689305962042801,COMPLETED,GPEI,32199.663477,2022-06-25 20:19:24.410411,2022-06-26 05:16:04.073888,184731.20326,0.769384472750312,0.002114649402475532
57,0.771,61,61_0,1.0,5.0,4.761597250834107,0.8545795762686837,0.23204335232302617,0.5402513071991198,0.3272800291936383,0.6492665958440194,0.6904504490905189,COMPLETED,GPEI,30153.701799,2022-06-25 20:42:46.693309,2022-06-26 05:05:20.395108,184087.52448,0.7700011419529429,0.001855103026940273
58,0.764,62,62_0,1.0,5.0,5.0,0.86965134455259,0.25168589484311765,0.5896335535335316,0.3051764471240621,0.7278193466137153,0.6427004839797555,COMPLETED,GPEI,33045.808736,2022-06-25 22:14:43.827320,2022-06-26 07:25:29.636056,192496.765428,0.7703583314547584,0.0017960752895590144
59,0.765,63,63_0,1.0,5.0,5.0,0.9473080472033786,0.3337790630295528,0.5874708409400394,0.29667141882533815,0.6901769416005263,0.648144648239324,COMPLETED,GPEI,30654.403118,2022-06-25 23:38:09.921822,2022-06-26 08:09:04.324940,195111.454312,0.7635570340158133,0.003071659773688252
60,0.772,64,64_0,1.0,5.0,5.0,0.8527770974886789,0.23697303414303617,0.43872007566453386,0.30697338840064564,0.76754483671769,0.7485497296084179,COMPLETED,GPEI,30599.526108,2022-06-26 01:00:14.399838,2022-06-26 09:30:13.925946,199981.055318,0.7698308036287171,0.002029363564903347
61,0.773,65,65_0,1.0,5.0,5.0,0.9131158087733623,0.25368426220252993,0.6208293725302134,0.3357642762757913,0.7806531807700308,0.688695679788252,COMPLETED,GPEI,35242.441784,2022-06-26 02:05:18.028726,2022-06-26 11:52:40.470510,208527.599882,0.7710146695845675,0.0018075733631227693
62,0.767,66,66_0,1.0,5.0,5.0,0.8978099758292456,0.3585688027408156,0.5163074222755286,0.27318315181968167,0.7911017296605591,0.7185568227624701,COMPLETED,GPEI,37578.690864,2022-06-26 04:01:21.403127,2022-06-26 14:27:40.093991,217827.223363,0.7652096350872071,0.002665415018015417
64,0.763,67,67_0,1.0,5.0,5.0,0.85580888724674,0.3078301549595721,0.5408459039418599,0.30127921109705935,0.7465779439214247,0.7082884198158891,COMPLETED,GPEI,31128.746725,2022-06-26 04:34:58.058372,2022-06-26 13:13:46.805097,213393.934469,0.7693076248636112,0.001834787690438943
65,0.764,68,68_0,1.0,5.0,5.0,0.8557795677195942,0.3266455451476274,0.36141453588237904,0.2752828189793215,0.8054206438739677,0.8257174215645656,COMPLETED,GPEI,31918.867697,2022-06-26 05:05:29.681634,2022-06-26 13:57:28.549331,216015.678703,0.7640256054199277,0.0029956429578887576
66,0.772,69,69_0,1.0,5.0,5.0,0.8943449358996425,0.2668448308720664,0.6783588255231667,0.3145928191195248,0.7333772500355377,0.7020694312294788,COMPLETED,GPEI,34084.037447,2022-06-26 05:16:19.403409,2022-06-26 14:44:23.440856,218830.570228,0.7713068851964087,0.0015971795835647326
67,0.77,70,70_0,1.0,5.0,5.0,0.884089116186973,0.22915982641285723,0.6204477344218681,0.3216600459281426,0.6712539811934431,0.7576519050611189,COMPLETED,GPEI,33605.287877,2022-06-26 07:25:36.511213,2022-06-26 16:45:41.799090,226108.928462,0.7716845406127533,0.0013949625911248988
68,0.767,71,71_0,1.0,5.0,4.583461859346033,0.8955939192143708,0.30227891741445867,0.5561382454579379,0.2921152540008633,0.706244338648939,0.8096983802712047,COMPLETED,GPEI,35435.414591,2022-06-26 08:09:17.173987,2022-06-26 17:59:52.588578,230559.71795,0.7670962209232166,0.0025196458726561505
69,0.773,72,72_0,1.0,5.0,5.0,0.8567388555951764,0.2650409776052868,0.37099409468527556,0.32118412620672443,0.7083209527638881,0.8546575428488492,COMPLETED,GPEI,31070.553234,2022-06-26 09:30:24.472008,2022-06-26 18:08:15.025242,231062.154614,0.7676756362555738,0.0022153046358049325
70,0.773,73,73_0,1.0,5.0,5.0,0.9071322126302459,0.23644895542628408,0.6280326848229553,0.33178115338852626,0.8359527897713637,0.8882216452823347,COMPLETED,GPEI,36755.771958,2022-06-26 11:52:49.043851,2022-06-26 22:05:24.815809,245291.945181,0.7685940429781445,0.0019533277360226364
71,0.772,74,74_0,1.0,5.0,5.0,0.8882827933413396,0.1824207348280383,0.5793932885556008,0.3659571706665909,0.7146661602397749,0.8073227079894696,COMPLETED,GPEI,32365.40605,2022-06-26 13:13:59.402874,2022-06-26 22:13:24.808924,245771.938296,0.7724129159703563,0.0019600101270636754
72,0.77,75,75_0,1.0,5.0,4.407144378724335,0.9052089617840674,0.23503724802166812,0.5106216944144712,0.342350111930599,0.7517582656479616,0.8473434036250128,COMPLETED,GPEI,36236.429839,2022-06-26 13:57:38.337503,2022-06-27 00:01:34.767342,252261.896714,0.7692225817404852,0.002552241836707756
73,0.753,76,76_0,1.0,5.0,5.0,0.9609645596485844,0.3293351398403809,0.4831172768772477,0.38664330798898405,0.8771495542971949,0.8594949679934205,COMPLETED,GPEI,31702.643124,2022-06-26 14:27:48.869360,2022-06-26 23:16:11.512484,249538.641856,0.7534720507891528,0.003559211838209893
74,0.77,77,77_0,1.0,5.0,5.0,0.9370856126906885,0.21233534726473208,0.8507807125963084,0.3563370295042186,0.680171266837492,0.7355273919134354,COMPLETED,GPEI,30075.71954,2022-06-26 14:44:36.113417,2022-06-26 23:05:51.832957,248918.962329,0.7695193038551457,0.0028244275121354885
76,0.773,78,78_0,1.0,5.0,4.51364179249407,0.9152948877492798,0.2571209091755592,0.694037704931539,0.3210688271562282,0.7950961757595214,0.7743558896745636,COMPLETED,GPEI,37505.64345,2022-06-26 16:45:59.059323,2022-06-27 03:11:04.702773,263631.832145,0.7699668751865203,0.0023067554697891912
77,0.765,79,79_0,1.0,5.0,4.569963701899354,0.9195036669803714,0.1725162560239702,0.5434196830570669,0.3432277479919402,0.9224603558897346,0.9219013741235564,COMPLETED,GPEI,40678.110632,2022-06-26 18:00:05.809645,2022-06-27 05:18:03.920277,271251.049649,0.7666144327340254,0.003161155536090331
78,0.763,80,80_0,1.0,5.0,4.779462022318757,0.8422224358065948,0.1409125002145863,0.19489672311036682,0.34455387504510565,0.6368103807168908,0.9264337357109449,COMPLETED,GPEI,30866.662881,2022-06-26 18:08:25.521250,2022-06-27 02:42:52.184131,261939.313503,0.762066239005011,0.0034704930175571075
79,0.77,81,81_0,1.0,5.0,5.0,0.8588758682593274,0.16335064943298722,0.4550041905181017,0.3574737676707528,0.7419351367548459,0.9144065479140191,COMPLETED,GPEI,33137.90945,2022-06-26 22:05:51.712671,2022-06-27 07:18:09.622121,278456.751493,0.7692748778823723,0.0024153744923009223
80,0.753,82,82_0,1.0,5.0,5.0,0.9292724819465729,0.27552744080014124,0.4303714268270008,0.34047364800203583,0.7728866676524859,0.9655020462628235,COMPLETED,GPEI,32110.040752,2022-06-26 22:13:43.532525,2022-06-27 07:08:53.573277,277900.702649,0.7591789002149251,0.002857133953422193
81,0.764,83,83_0,1.0,4.55779395756704,5.0,0.9064895501360545,0.2308760500007525,0.5749720378798954,0.32053811927789905,0.7455632228935921,0.856966335330577,COMPLETED,GPEI,38208.579374,2022-06-26 23:06:20.488217,2022-06-27 09:43:09.067591,287156.196963,0.764471852331993,0.0032540850580115837
82,0.772,84,84_0,1.0,5.0,5.0,0.893790695718324,0.16297216977070522,0.5863157884968857,0.3127750748881661,0.7368527607658586,0.9176975004256341,COMPLETED,GPEI,36432.845602,2022-06-26 23:16:29.991542,2022-06-27 09:23:42.837144,285989.966516,0.7692741858284838,0.002189917399380233
83,0.774,85,85_0,1.0,5.0,5.0,0.9044303357810076,0.15301989934652752,0.5343943785873342,0.3435576157474283,0.6561245038459598,1.0,COMPLETED,GPEI,36325.863189,2022-06-27 00:01:57.623968,2022-06-27 10:07:23.487157,288610.616529,0.7679204381441107,0.0026305385820023235
84,0.764,86,86_0,1.0,5.0,5.0,0.8635879446850138,0.1893837891439501,0.6224387002930322,0.332431375306839,0.7668714909975767,0.8665935099988686,COMPLETED,GPEI,35079.213982,2022-06-27 02:43:14.791556,2022-06-27 12:27:54.005538,297041.13491,0.7709647043720311,0.0019401703987065293
85,0.765,87,87_0,1.0,5.0,4.965225338704254,0.9165784103751667,0.24873065327127758,0.9077402364531842,0.3199456576143087,0.8460497729089962,0.8006039959198733,COMPLETED,GPEI,41068.644272,2022-06-27 03:11:29.572034,2022-06-27 14:35:58.216306,304725.345678,0.766885713755639,0.002473112134136571
86,0.755,88,88_0,1.0,5.0,5.0,0.9359574840202693,0.26659098417055094,0.809795252963114,0.29843290805791645,0.7654112744166308,0.8899255421496053,COMPLETED,GPEI,33512.566669,2022-06-27 05:18:16.919262,2022-06-27 14:36:49.485931,304776.615303,0.7605770488167483,0.002941912842772932
88,0.777,89,89_0,1.0,5.0,4.797469164886128,0.8882912114973537,0.19088310483268667,0.7116554779571952,0.35162087956113086,0.8255216981381697,0.773676355588331,COMPLETED,GPEI,36146.383541,2022-06-27 07:09:27.372474,2022-06-27 17:11:53.756015,314080.885387,0.7735453340223909,0.0018674610772804823
89,0.772,90,90_0,1.0,5.0,4.930789711878107,0.9220380149059205,0.20707525237924118,0.9316514028145311,0.3514368102883777,0.9698186485409719,0.7290788140348363,COMPLETED,GPEI,42855.954702,2022-06-27 07:18:18.030595,2022-06-27 19:12:33.985297,321321.114669,0.767890919228057,0.00300478485743911
90,0.768,91,91_0,1.0,5.0,4.808883976729417,0.8712240722075759,0.176019547762573,0.5290742899527848,0.3244146850611306,0.7626690706103197,0.8119654240464895,COMPLETED,GPEI,35116.383808,2022-06-27 09:24:19.214457,2022-06-27 19:09:35.598265,321142.727637,0.7715687919125747,0.001777659723605304
91,0.772,92,92_0,1.0,5.0,5.0,0.8897029157608048,0.1,0.9461787307497207,0.36500607883389935,0.7887886830318581,0.9163259502419114,COMPLETED,GPEI,36522.870837,2022-06-27 09:43:30.028901,2022-06-27 19:52:12.899738,323700.02911,0.7706593049521112,0.003473808955162541
92,0.773,93,93_0,1.0,5.0,4.588535200245283,0.8949331840579171,0.12948356103348455,0.714938725376711,0.3626701411781102,0.630906272304239,0.9446019251265731,COMPLETED,GPEI,35761.66543,2022-06-27 10:07:44.754327,2022-06-27 20:03:46.419757,324393.549129,0.7716545100855038,0.002886838427630592
93,0.773,94,94_0,1.0,5.0,4.759816825240985,0.9141234756715655,0.13962268524808458,0.6521573590396432,0.36027897579524587,0.6010147251499021,0.8338319633239409,COMPLETED,GPEI,35813.164474,2022-06-27 12:28:24.217713,2022-06-27 22:25:17.382187,332884.511559,0.7715252226236652,0.0024719992261016204
94,0.756,95,95_0,1.0,5.0,5.0,0.8542115142132591,0.15253509950820443,0.4776373306037728,0.33344492604849857,0.5041830783869503,0.862796005680268,COMPLETED,GPEI,30260.549032,2022-06-27 14:36:32.254046,2022-06-27 23:00:52.803078,335019.93245,0.7639309628261655,0.002561335170073364
95,0.765,96,96_0,1.0,5.0,4.500629826874533,0.9313588356501272,0.2287220601967425,0.8009225328579713,0.37024496035806287,0.7847804372618923,0.6084064520395523,COMPLETED,GPEI,30986.003518,2022-06-27 14:37:03.510489,2022-06-27 23:13:29.514007,335776.643379,0.7654686782383416,0.0029873328358091433
96,0.768,97,97_0,1.0,5.0,4.7782491560950175,0.907000784830864,0.1897535986365163,0.7255300250966635,0.37066798830480663,0.8058390287576619,0.686760132650723,COMPLETED,GPEI,32719.514214,2022-06-27 17:12:17.593731,2022-06-28 02:17:37.107945,346824.237317,0.7715905512951855,0.00212841464170639
97,0.755,98,98_0,1.0,5.0,4.860627334397506,0.9281837526552823,0.2679390891402701,0.8591365691728865,0.3672823361121574,0.9898862578559522,0.49102260942257747,COMPLETED,GPEI,27295.743087,2022-06-27 19:09:46.910529,2022-06-28 02:44:42.653616,348449.782988,0.75586314353827,0.0036689883938050925
98,0.755,99,99_0,1.0,5.0,5.0,0.8625855662858457,0.1,0.39951774645427607,0.3716709570506998,0.31872683959883996,1.0,COMPLETED,GPEI,26250.288217,2022-06-27 19:12:39.232964,2022-06-28 02:30:09.521181,347576.650553,0.7539193835510748,0.003754530508935301
